PART_ID,Trial,Stimuli,Training,FIXTIME,MTIME,Correct,SOA,Level,Reversal,Reversal_count,Latency,Rating
3K25,0,SQUARES,1,20,17,0,6,-1,0,0,-1.0,Żadna
3K25,1,SQUARES,1,20,17,1,7,-1,0,-,1.51705002784729,Mała
3K25,2,SQUARES,1,20,17,1,7,-1,0,-,1.0002679824829102,Duża
3K25,3,SQUARES,1,20,17,1,7,1,1,1,0.6503009796142578,Duża
3K25,4,SQUARES,1,20,17,1,6,1,0,-,0.4669320583343506,Duża
3K25,5,SQUARES,1,20,17,1,6,1,0,-,0.6669139862060547,Duża
3K25,6,SQUARES,1,20,17,1,6,1,0,-,0.6835429668426514,Duża
3K25,7,SQUARES,1,20,17,1,5,1,0,-,0.5502989292144775,Duża
3K25,8,SQUARES,1,20,17,1,5,1,0,-,0.6167521476745605,Duża
3K25,9,SQUARES,1,20,17,1,5,1,0,-,0.6002659797668457,Duża
3K25,10,SQUARES,1,20,17,1,4,1,0,-,0.6502220630645752,Duża
3K25,11,SQUARES,1,20,17,1,4,1,0,-,0.9669861793518066,Duża
3K25,12,SQUARES,1,20,17,1,4,1,0,-,1.5502660274505615,Duża
3K25,13,SQUARES,1,20,17,0,3,-1,1,2,1.800201177597046,Mała
3K25,14,SQUARES,1,20,17,0,4,-1,0,-,0.5002849102020264,Duża
3K25,15,SQUARES,1,20,17,1,5,-1,0,-,3.4002671241760254,Mała
3K25,16,SQUARES,1,20,17,0,5,-1,0,-,2.133574962615967,Mała
3K25,17,SQUARES,1,20,17,1,6,-1,0,-,0.6002810001373291,Duża
3K25,18,SQUARES,1,20,17,1,6,-1,0,-,0.5669071674346924,Duża
3K25,19,SQUARES,1,20,17,1,6,1,1,3,1.0169260501861572,Duża
3K25,20,SQUARES,1,20,17,1,5,1,0,-,1.9002609252929688,Duża
3K25,21,SQUARES,1,20,17,1,5,1,0,-,1.1502809524536133,Duża
3K25,22,SQUARES,1,20,17,0,5,-1,1,4,3.0835418701171875,Mała
3K25,23,SQUARES,1,20,17,1,6,-1,0,-,0.6502552032470703,Duża
3K25,24,SQUARES,1,20,17,1,6,-1,0,-,0.7834038734436035,Duża
3K25,25,SQUARES,1,20,17,1,6,1,1,5,0.5835700035095215,Duża
3K25,26,SQUARES,1,20,17,1,5,1,0,-,0.7336521148681641,Duża
3K25,27,SQUARES,1,20,17,1,5,1,0,-,0.9002602100372314,Duża
3K25,28,SQUARES,1,20,17,0,5,-1,1,6,1.7667288780212402,Duża
3K25,29,SQUARES,1,20,17,1,6,-1,0,-,2.450237989425659,Duża
3K25,30,SQUARES,1,20,17,1,6,-1,0,-,1.4169139862060547,Duża
3K25,31,SQUARES,1,20,17,1,6,1,1,7,1.2001800537109375,Duża
3K25,32,SQUARES,1,20,17,1,5,1,0,-,1.6169171333312988,Duża
3K25,33,SQUARES,1,20,17,0,5,-1,1,8,1.166891098022461,Duża
3K25,33,SQUARES,0,480,17,1,5,-,-,-,1.8000540733337402,Mała
3K25,34,SQUARES,0,480,17,1,5,-,-,-,1.5002200603485107,Duża
3K25,35,SQUARES,0,480,17,0,5,-,-,-,2.0002529621124268,Mała
3K25,36,SQUARES,0,480,17,1,5,-,-,-,0.9333939552307129,Duża
3K25,37,SQUARES,0,480,17,1,5,-,-,-,1.1502549648284912,Duża
3K25,38,SQUARES,0,480,17,1,5,-,-,-,0.800300121307373,Duża
3K25,39,SQUARES,0,480,17,0,5,-,-,-,3.2337169647216797,Mała
3K25,40,SQUARES,0,480,17,1,5,-,-,-,2.016906976699829,Mała
3K25,41,SQUARES,0,480,17,1,5,-,-,-,0.5667769908905029,Duża
3K25,42,SQUARES,0,480,17,1,5,-,-,-,0.9668920040130615,Duża
3K25,43,SQUARES,0,480,17,0,5,-,-,-,0.850222110748291,Duża
3K25,44,SQUARES,0,480,17,1,5,-,-,-,1.0502090454101562,Duża
3K25,45,SQUARES,0,480,17,1,5,-,-,-,0.7502880096435547,Mała
3K25,46,SQUARES,0,480,17,1,5,-,-,-,0.616908073425293,Duża
3K25,47,SQUARES,0,480,17,0,5,-,-,-,0.850243091583252,Duża
3K25,48,SQUARES,0,480,17,0,5,-,-,-,3.116956949234009,Mała
3K25,49,SQUARES,0,480,17,1,5,-,-,-,0.6169378757476807,Duża
3K25,50,SQUARES,0,480,17,1,5,-,-,-,0.5169708728790283,Duża
3K25,51,SQUARES,0,480,17,1,5,-,-,-,0.5336239337921143,Duża
3K25,52,SQUARES,0,480,17,1,5,-,-,-,0.5669200420379639,Duża
3K25,53,SQUARES,0,480,17,1,5,-,-,-,0.6502439975738525,Duża
3K25,54,SQUARES,0,480,17,0,5,-,-,-,0.8502421379089355,Duża
3K25,55,SQUARES,0,480,17,1,5,-,-,-,0.5002470016479492,Duża
3K25,56,SQUARES,0,480,17,0,5,-,-,-,1.666910171508789,Duża
3K25,57,SQUARES,0,480,17,1,5,-,-,-,2.566943883895874,Duża
3K25,58,SQUARES,0,480,17,1,5,-,-,-,2.8167190551757812,Duża
3K25,59,SQUARES,0,480,17,0,5,-,-,-,-1.0,Mała
3K25,60,SQUARES,0,480,17,0,5,-,-,-,0.8836181163787842,Duża
3K25,61,SQUARES,0,480,17,1,5,-,-,-,0.8336098194122314,Duża
3K25,62,SQUARES,0,480,17,1,5,-,-,-,0.5671360492706299,Duża
3K25,63,SQUARES,0,480,17,0,5,-,-,-,1.0335919857025146,Duża
3K25,64,SQUARES,0,480,17,1,5,-,-,-,0.7669670581817627,Duża
3K25,65,SQUARES,0,480,17,1,5,-,-,-,0.46669483184814453,Duża
3K25,66,SQUARES,0,480,17,0,5,-,-,-,1.0669021606445312,Duża
3K25,67,SQUARES,0,480,17,1,5,-,-,-,0.4669320583343506,Duża
3K25,68,SQUARES,0,480,17,1,5,-,-,-,0.5502340793609619,Duża
3K25,69,SQUARES,0,480,17,1,5,-,-,-,0.500251054763794,Duża
3K25,70,SQUARES,0,480,17,1,5,-,-,-,0.6835811138153076,Duża
3K25,71,SQUARES,0,480,17,1,5,-,-,-,0.4503309726715088,Duża
3K25,72,SQUARES,0,480,17,1,5,-,-,-,0.4502739906311035,Duża
3K25,73,SQUARES,0,480,17,0,5,-,-,-,0.4836699962615967,Duża
3K25,74,SQUARES,0,480,17,1,5,-,-,-,0.5000782012939453,Duża
3K25,75,SQUARES,0,480,17,0,5,-,-,-,-1.0,Żadna
3K25,76,SQUARES,0,480,17,1,5,-,-,-,0.4835629463195801,Mała
3K25,77,SQUARES,0,480,17,1,5,-,-,-,0.3169429302215576,Duża
3K25,78,SQUARES,0,480,17,0,5,-,-,-,0.7502288818359375,Duża
3K25,79,SQUARES,0,480,17,1,5,-,-,-,0.43361401557922363,Duża
3K25,80,SQUARES,0,480,17,1,5,-,-,-,0.6835570335388184,Duża
3K25,81,SQUARES,0,480,17,1,5,-,-,-,0.8836469650268555,Duża
3K25,82,SQUARES,0,480,17,1,5,-,-,-,0.4000701904296875,Duża
3K25,83,SQUARES,0,480,17,1,5,-,-,-,0.4834280014038086,Duża
3K25,84,SQUARES,0,480,17,1,5,-,-,-,0.5336599349975586,Mała
3K25,85,SQUARES,0,480,17,1,5,-,-,-,0.9836089611053467,Mała
3K25,86,SQUARES,0,480,17,1,5,-,-,-,0.366757869720459,Duża
3K25,87,SQUARES,0,480,17,1,5,-,-,-,1.2169129848480225,Mała
3K25,88,SQUARES,0,480,17,1,5,-,-,-,0.36693906784057617,Duża
3K25,89,SQUARES,0,480,17,1,5,-,-,-,0.8169980049133301,Duża
3K25,90,SQUARES,0,480,17,0,5,-,-,-,2.450139045715332,Mała
3K25,91,SQUARES,0,480,17,1,5,-,-,-,0.3669891357421875,Duża
3K25,92,SQUARES,0,480,17,1,5,-,-,-,0.9668800830841064,Duża
3K25,93,SQUARES,0,480,17,1,5,-,-,-,1.6335489749908447,Duża
3K25,94,SQUARES,0,480,17,0,5,-,-,-,1.6336660385131836,Duża
3K25,95,SQUARES,0,480,17,1,5,-,-,-,0.5669040679931641,Duża
3K25,96,SQUARES,0,480,17,0,5,-,-,-,1.016921043395996,Duża
3K25,97,SQUARES,0,480,17,1,5,-,-,-,0.48357200622558594,Duża
3K25,98,SQUARES,0,480,17,1,5,-,-,-,0.5835738182067871,Duża
3K25,99,SQUARES,0,480,17,1,5,-,-,-,1.2335278987884521,Duża
3K25,100,SQUARES,0,480,17,1,5,-,-,-,1.25028395652771,Duża
3K25,101,SQUARES,0,480,17,0,5,-,-,-,0.5002429485321045,Duża
3K25,102,SQUARES,0,480,17,0,5,-,-,-,0.5669159889221191,Duża
3K25,103,SQUARES,0,480,17,1,5,-,-,-,0.4502298831939697,Duża
3K25,104,SQUARES,0,480,17,1,5,-,-,-,0.31691908836364746,Duża
3K25,105,SQUARES,0,480,17,1,5,-,-,-,0.31690096855163574,Duża
3K25,106,SQUARES,0,480,17,1,5,-,-,-,0.35027503967285156,Duża
3K25,107,SQUARES,0,480,17,1,5,-,-,-,0.4002211093902588,Duża
3K25,108,SQUARES,0,480,17,0,5,-,-,-,1.2336149215698242,Duża
3K25,109,SQUARES,0,480,17,1,5,-,-,-,0.6335880756378174,Duża
3K25,110,SQUARES,0,480,17,1,5,-,-,-,0.33360791206359863,Duża
3K25,111,SQUARES,0,480,17,0,5,-,-,-,0.500262975692749,Duża
3K25,112,SQUARES,0,480,17,1,5,-,-,-,0.5503098964691162,Mała
3K25,113,SQUARES,0,480,17,0,5,-,-,-,0.4502718448638916,Duża
3K25,114,SQUARES,0,480,17,1,5,-,-,-,0.35027098655700684,Duża
3K25,115,SQUARES,0,480,17,1,5,-,-,-,1.5669260025024414,Duża
3K25,116,SQUARES,0,480,17,1,5,-,-,-,0.4835679531097412,Duża
3K25,117,SQUARES,0,480,17,1,5,-,-,-,0.7002458572387695,Duża
3K25,118,SQUARES,0,480,17,1,5,-,-,-,0.4335319995880127,Duża
3K25,119,SQUARES,0,480,17,1,5,-,-,-,0.5003058910369873,Duża
3K25,120,SQUARES,0,480,17,1,5,-,-,-,0.41700196266174316,Duża
3K25,121,SQUARES,0,480,17,1,5,-,-,-,0.4836130142211914,Duża
3K25,122,SQUARES,0,480,17,1,5,-,-,-,0.5668928623199463,Duża
3K25,0,CIRCLES,1,20,17,1,10,0,0,0,0.4335751533508301,Duża
3K25,1,CIRCLES,1,20,17,1,10,0,0,-,0.2836031913757324,Całkowita
3K25,2,CIRCLES,1,20,17,1,10,1,0,-,0.43358397483825684,Całkowita
3K25,3,CIRCLES,1,20,17,1,9,1,0,-,0.45023202896118164,Całkowita
3K25,4,CIRCLES,1,20,17,1,9,1,0,-,0.5002191066741943,Całkowita
3K25,5,CIRCLES,1,20,17,1,9,1,0,-,0.4334120750427246,Całkowita
3K25,6,CIRCLES,1,20,17,1,8,1,0,-,0.466933012008667,Całkowita
3K25,7,CIRCLES,1,20,17,1,8,1,0,-,0.26689791679382324,Całkowita
3K25,8,CIRCLES,1,20,17,1,8,1,0,-,0.4168980121612549,Całkowita
3K25,9,CIRCLES,1,20,17,1,7,1,0,-,0.3002490997314453,Całkowita
3K25,10,CIRCLES,1,20,17,1,7,1,0,-,1.0834038257598877,Całkowita
3K25,11,CIRCLES,1,20,17,1,7,1,0,-,0.41690707206726074,Całkowita
3K25,12,CIRCLES,1,20,17,0,6,-1,1,1,0.650198221206665,Całkowita
3K25,13,CIRCLES,1,20,17,1,7,-1,0,-,0.3667490482330322,Całkowita
3K25,14,CIRCLES,1,20,17,1,7,-1,0,-,0.5002419948577881,Całkowita
3K25,15,CIRCLES,1,20,17,1,7,1,1,2,1.500229835510254,Mała
3K25,16,CIRCLES,1,20,17,1,6,1,0,-,0.4836008548736572,Duża
3K25,17,CIRCLES,1,20,17,0,6,-1,1,3,1.200195074081421,Duża
3K25,18,CIRCLES,1,20,17,1,7,-1,0,-,0.20023393630981445,Całkowita
3K25,19,CIRCLES,1,20,17,1,7,-1,0,-,0.4335899353027344,Całkowita
3K25,20,CIRCLES,1,20,17,1,7,1,1,4,0.46688294410705566,Całkowita
3K25,21,CIRCLES,1,20,17,1,6,1,0,-,1.6335630416870117,Mała
3K25,22,CIRCLES,1,20,17,1,6,1,0,-,0.416903018951416,Całkowita
3K25,23,CIRCLES,1,20,17,1,6,1,0,-,1.4502801895141602,Mała
3K25,24,CIRCLES,1,20,17,1,5,1,0,-,0.5669012069702148,Mała
3K25,25,CIRCLES,1,20,17,1,5,1,0,-,0.5668978691101074,Całkowita
3K25,26,CIRCLES,1,20,17,1,5,1,0,-,0.46690988540649414,Całkowita
3K25,27,CIRCLES,1,20,17,1,4,1,0,-,0.8668911457061768,Mała
3K25,28,CIRCLES,1,20,17,1,4,1,0,-,0.7337081432342529,Duża
3K25,29,CIRCLES,1,20,17,0,4,-1,1,5,2.2836639881134033,Mała
3K25,30,CIRCLES,1,20,17,1,5,-1,0,-,0.4833838939666748,Całkowita
3K25,31,CIRCLES,1,20,17,1,5,-1,0,-,1.2669639587402344,Mała
3K25,32,CIRCLES,1,20,17,0,5,-1,0,-,1.3834311962127686,Mała
3K25,33,CIRCLES,1,20,17,1,6,-1,0,-,0.6169300079345703,Całkowita
3K25,34,CIRCLES,1,20,17,1,6,-1,0,-,2.1668448448181152,Mała
3K25,35,CIRCLES,1,20,17,1,6,1,1,6,1.6169071197509766,Mała
3K25,36,CIRCLES,1,20,17,1,5,1,0,-,2.38352108001709,Mała
3K25,37,CIRCLES,1,20,17,0,5,-1,1,7,1.1668899059295654,Mała
3K25,38,CIRCLES,1,20,17,1,6,-1,0,-,1.7002201080322266,Mała
3K25,39,CIRCLES,1,20,17,1,6,-1,0,-,0.483597993850708,Całkowita
3K25,40,CIRCLES,1,20,17,1,6,1,1,8,0.5502538681030273,Całkowita
3K25,40,CIRCLES,0,480,17,1,6,-,-,-,0.833622932434082,Duża
3K25,41,CIRCLES,0,480,17,1,6,-,-,-,1.2000608444213867,Duża
3K25,42,CIRCLES,0,480,17,1,6,-,-,-,0.7333860397338867,Mała
3K25,43,CIRCLES,0,480,17,1,6,-,-,-,1.0167279243469238,Mała
3K25,44,CIRCLES,0,480,17,0,6,-,-,-,0.9336068630218506,Duża
3K25,45,CIRCLES,0,480,17,1,6,-,-,-,1.4169130325317383,Mała
3K25,46,CIRCLES,0,480,17,1,6,-,-,-,1.6333889961242676,Mała
3K25,47,CIRCLES,0,480,17,0,6,-,-,-,0.5502879619598389,Duża
3K25,48,CIRCLES,0,480,17,1,6,-,-,-,0.6335771083831787,Mała
3K25,49,CIRCLES,0,480,17,0,6,-,-,-,1.1836299896240234,Mała
3K25,50,CIRCLES,0,480,17,0,6,-,-,-,1.6168649196624756,Mała
3K25,51,CIRCLES,0,480,17,1,6,-,-,-,1.5500290393829346,Mała
3K25,52,CIRCLES,0,480,17,1,6,-,-,-,0.5836160182952881,Całkowita
3K25,53,CIRCLES,0,480,17,0,6,-,-,-,1.866960048675537,Duża
3K25,54,CIRCLES,0,480,17,0,6,-,-,-,0.8002700805664062,Mała
3K25,55,CIRCLES,0,480,17,1,6,-,-,-,0.6333949565887451,Duża
3K25,56,CIRCLES,0,480,17,1,6,-,-,-,0.5502090454101562,Całkowita
3K25,57,CIRCLES,0,480,17,1,6,-,-,-,1.0003118515014648,Duża
3K25,58,CIRCLES,0,480,17,1,6,-,-,-,0.716724157333374,Duża
3K25,59,CIRCLES,0,480,17,0,6,-,-,-,0.9335908889770508,Duża
3K25,60,CIRCLES,0,480,17,0,6,-,-,-,0.5336110591888428,Duża
3K25,61,CIRCLES,0,480,17,0,6,-,-,-,1.4667558670043945,Mała
3K25,62,CIRCLES,0,480,17,1,6,-,-,-,0.4503180980682373,Całkowita
3K25,63,CIRCLES,0,480,17,0,6,-,-,-,0.7835979461669922,Duża
3K25,64,CIRCLES,0,480,17,1,6,-,-,-,0.6335690021514893,Duża
3K25,65,CIRCLES,0,480,17,0,6,-,-,-,1.3169050216674805,Mała
3K25,66,CIRCLES,0,480,17,1,6,-,-,-,0.45030689239501953,Całkowita
3K25,67,CIRCLES,0,480,17,1,6,-,-,-,0.5168819427490234,Całkowita
3K25,68,CIRCLES,0,480,17,0,6,-,-,-,0.8667299747467041,Duża
3K25,69,CIRCLES,0,480,17,0,6,-,-,-,1.2668991088867188,Duża
3K25,70,CIRCLES,0,480,17,1,6,-,-,-,1.6005871295928955,Mała
3K25,71,CIRCLES,0,480,17,0,6,-,-,-,0.4667539596557617,Duża
3K25,72,CIRCLES,0,480,17,1,6,-,-,-,0.40029406547546387,Całkowita
3K25,73,CIRCLES,0,480,17,1,6,-,-,-,0.21692299842834473,Duża
3K25,74,CIRCLES,0,480,17,1,6,-,-,-,0.5669679641723633,Duża
3K25,75,CIRCLES,0,480,17,0,6,-,-,-,0.41696619987487793,Duża
3K25,76,CIRCLES,0,480,17,0,6,-,-,-,0.5835840702056885,Całkowita
3K25,77,CIRCLES,0,480,17,1,6,-,-,-,0.4335951805114746,Całkowita
3K25,78,CIRCLES,0,480,17,0,6,-,-,-,0.5169858932495117,Duża
3K25,79,CIRCLES,0,480,17,1,6,-,-,-,0.2834010124206543,Całkowita
3K25,80,CIRCLES,0,480,17,1,6,-,-,-,0.3002490997314453,Całkowita
3K25,81,CIRCLES,0,480,17,0,6,-,-,-,0.2838289737701416,Całkowita
3K25,82,CIRCLES,0,480,17,0,6,-,-,-,0.35007715225219727,Całkowita
3K25,83,CIRCLES,0,480,17,0,6,-,-,-,0.6502211093902588,Duża
3K25,84,CIRCLES,0,480,17,1,6,-,-,-,1.0502569675445557,Mała
3K25,85,CIRCLES,0,480,17,1,6,-,-,-,0.45026707649230957,Całkowita
3K25,86,CIRCLES,0,480,17,0,6,-,-,-,0.6334199905395508,Duża
3K25,87,CIRCLES,0,480,17,1,6,-,-,-,0.9335520267486572,Duża
3K25,88,CIRCLES,0,480,17,1,6,-,-,-,0.5502381324768066,Mała
3K25,89,CIRCLES,0,480,17,1,6,-,-,-,0.5335969924926758,Całkowita
3K25,90,CIRCLES,0,480,17,1,6,-,-,-,0.900230884552002,Duża
3K25,91,CIRCLES,0,480,17,1,6,-,-,-,0.7335810661315918,Duża
3K25,92,CIRCLES,0,480,17,1,6,-,-,-,1.2500629425048828,Mała
3K25,93,CIRCLES,0,480,17,1,6,-,-,-,0.6168379783630371,Całkowita
3K25,94,CIRCLES,0,480,17,1,6,-,-,-,0.500298023223877,Duża
3K25,95,CIRCLES,0,480,17,1,6,-,-,-,0.4833998680114746,Mała
3K25,96,CIRCLES,0,480,17,1,6,-,-,-,0.4002559185028076,Duża
3K25,97,CIRCLES,0,480,17,1,6,-,-,-,0.38353896141052246,Duża
3K25,98,CIRCLES,0,480,17,1,6,-,-,-,0.616936206817627,Duża
3K25,99,CIRCLES,0,480,17,0,6,-,-,-,0.7335929870605469,Duża
3K25,100,CIRCLES,0,480,17,1,6,-,-,-,0.7336039543151855,Mała
3K25,101,CIRCLES,0,480,17,0,6,-,-,-,0.850106954574585,Mała
3K25,102,CIRCLES,0,480,17,1,6,-,-,-,0.48363304138183594,Duża
3K25,103,CIRCLES,0,480,17,1,6,-,-,-,0.46692895889282227,Całkowita
3K25,104,CIRCLES,0,480,17,0,6,-,-,-,2.2169270515441895,Duża
3K25,105,CIRCLES,0,480,17,1,6,-,-,-,0.9002518653869629,Mała
3K25,106,CIRCLES,0,480,17,1,6,-,-,-,1.3502781391143799,Duża
3K25,107,CIRCLES,0,480,17,0,6,-,-,-,0.7169251441955566,Duża
3K25,108,CIRCLES,0,480,17,1,6,-,-,-,0.9503161907196045,Mała
3K25,109,CIRCLES,0,480,17,1,6,-,-,-,1.8002398014068604,Mała
3K25,110,CIRCLES,0,480,17,1,6,-,-,-,0.5502119064331055,Całkowita
3K25,111,CIRCLES,0,480,17,0,6,-,-,-,1.600250005722046,Mała
3K25,112,CIRCLES,0,480,17,0,6,-,-,-,2.200247049331665,Duża
3K25,113,CIRCLES,0,480,17,0,6,-,-,-,0.4668898582458496,Mała
3K25,114,CIRCLES,0,480,17,0,6,-,-,-,0.4000527858734131,Całkowita
3K25,115,CIRCLES,0,480,17,1,6,-,-,-,0.5000529289245605,Całkowita
3K25,116,CIRCLES,0,480,17,1,6,-,-,-,0.5002448558807373,Mała
3K25,117,CIRCLES,0,480,17,0,6,-,-,-,0.5171480178833008,Duża
3K25,118,CIRCLES,0,480,17,1,6,-,-,-,1.4167189598083496,Mała
3K25,119,CIRCLES,0,480,17,1,6,-,-,-,1.333704948425293,Mała
3K25,120,CIRCLES,0,480,17,0,6,-,-,-,1.6335291862487793,Duża
3K25,121,CIRCLES,0,480,17,1,6,-,-,-,0.7835891246795654,Duża
3K25,122,CIRCLES,0,480,17,1,6,-,-,-,1.2167391777038574,Mała
3K25,123,CIRCLES,0,480,17,1,6,-,-,-,0.6002418994903564,Całkowita
3K25,124,CIRCLES,0,480,17,0,6,-,-,-,1.416722059249878,Mała
3K25,125,CIRCLES,0,480,17,0,6,-,-,-,1.6002559661865234,Mała
3K25,126,CIRCLES,0,480,17,1,6,-,-,-,1.4833788871765137,Duża
3K25,127,CIRCLES,0,480,17,0,6,-,-,-,2.1002089977264404,Mała
3K25,128,CIRCLES,0,480,17,1,6,-,-,-,0.9168920516967773,Duża
3K25,129,CIRCLES,0,480,17,1,6,-,-,-,1.1667311191558838,Duża
