PART_ID,Trial,Stimuli,Training,FIXTIME,MTIME,Correct,SOA,Level,Reversal,Reversal_count,Latency,Rating
9K28,0,SQUARES,1,20,17,0,6,-1,0,0,1.3669281005859375,Mała
9K28,1,SQUARES,1,20,17,1,7,-1,0,-,1.3336601257324219,Duża
9K28,2,SQUARES,1,20,17,1,7,-1,0,-,0.5167479515075684,Duża
9K28,3,SQUARES,1,20,17,1,7,1,1,1,0.3502461910247803,Duża
9K28,4,SQUARES,1,20,17,1,6,1,0,-,0.3168778419494629,Duża
9K28,5,SQUARES,1,20,17,1,6,1,0,-,0.38338780403137207,Duża
9K28,6,SQUARES,1,20,17,1,6,1,0,-,0.41693997383117676,Duża
9K28,7,SQUARES,1,20,17,1,5,1,0,-,0.45007896423339844,Całkowita
9K28,8,SQUARES,1,20,17,1,5,1,0,-,0.3836650848388672,Całkowita
9K28,9,SQUARES,1,20,17,1,5,1,0,-,0.33363795280456543,Duża
9K28,10,SQUARES,1,20,17,1,4,1,0,-,0.7334029674530029,Duża
9K28,11,SQUARES,1,20,17,1,4,1,0,-,0.5167369842529297,Duża
9K28,12,SQUARES,1,20,17,1,4,1,0,-,0.43355894088745117,Całkowita
9K28,13,SQUARES,1,20,17,1,3,1,0,-,0.333590030670166,Duża
9K28,14,SQUARES,1,20,17,1,3,1,0,-,0.2500731945037842,Duża
9K28,15,SQUARES,1,20,17,1,3,1,0,-,0.38338708877563477,Duża
9K28,16,SQUARES,1,20,17,1,2,1,0,-,0.41692519187927246,Duża
9K28,17,SQUARES,1,20,17,0,2,-1,1,2,0.6002998352050781,Duża
9K28,18,SQUARES,1,20,17,1,3,-1,0,-,0.8335700035095215,Duża
9K28,19,SQUARES,1,20,17,1,3,-1,0,-,0.6502580642700195,Mała
9K28,20,SQUARES,1,20,17,1,3,1,1,3,0.40006518363952637,Duża
9K28,21,SQUARES,1,20,17,0,2,-1,1,4,0.7502119541168213,Mała
9K28,22,SQUARES,1,20,17,1,3,-1,0,-,0.7835400104522705,Duża
9K28,23,SQUARES,1,20,17,1,3,-1,0,-,0.5502691268920898,Mała
9K28,24,SQUARES,1,20,17,0,3,-1,0,-,1.2336149215698242,Mała
9K28,25,SQUARES,1,20,17,0,4,-1,0,-,1.150230884552002,Mała
9K28,26,SQUARES,1,20,17,1,5,-1,0,-,0.7335867881774902,Duża
9K28,27,SQUARES,1,20,17,1,5,-1,0,-,0.3502640724182129,Duża
9K28,28,SQUARES,1,20,17,1,5,1,1,5,0.4003019332885742,Duża
9K28,29,SQUARES,1,20,17,1,4,1,0,-,0.3002638816833496,Duża
9K28,30,SQUARES,1,20,17,1,4,1,0,-,0.3502328395843506,Duża
9K28,31,SQUARES,1,20,17,1,4,1,0,-,0.3334159851074219,Duża
9K28,32,SQUARES,1,20,17,1,3,1,0,-,0.3835599422454834,Duża
9K28,33,SQUARES,1,20,17,1,3,1,0,-,0.3502068519592285,Duża
9K28,34,SQUARES,1,20,17,1,3,1,0,-,0.7169129848480225,Mała
9K28,35,SQUARES,1,20,17,1,2,1,0,-,0.733557939529419,Duża
9K28,36,SQUARES,1,20,17,1,2,1,0,-,0.6002531051635742,Mała
9K28,37,SQUARES,1,20,17,0,2,-1,1,6,0.46691322326660156,Duża
9K28,38,SQUARES,1,20,17,1,3,-1,0,-,1.2503180503845215,Mała
9K28,39,SQUARES,1,20,17,1,3,-1,0,-,0.48352694511413574,Mała
9K28,40,SQUARES,1,20,17,1,3,1,1,7,0.43340110778808594,Mała
9K28,41,SQUARES,1,20,17,0,2,-1,1,8,0.9169259071350098,Mała
9K28,41,SQUARES,0,480,17,1,3,-,-,-,2.26688814163208,Żadna
9K28,42,SQUARES,0,480,17,1,3,-,-,-,1.8836557865142822,Mała
9K28,43,SQUARES,0,480,17,0,3,-,-,-,1.3669250011444092,Mała
9K28,44,SQUARES,0,480,17,0,3,-,-,-,1.1003069877624512,Żadna
9K28,45,SQUARES,0,480,17,1,3,-,-,-,2.200253963470459,Mała
9K28,46,SQUARES,0,480,17,0,3,-,-,-,1.6669299602508545,Żadna
9K28,47,SQUARES,0,480,17,1,3,-,-,-,0.900299072265625,Mała
9K28,48,SQUARES,0,480,17,0,3,-,-,-,1.3834080696105957,Mała
9K28,49,SQUARES,0,480,17,0,3,-,-,-,1.2002370357513428,Mała
9K28,50,SQUARES,0,480,17,0,3,-,-,-,1.1169421672821045,Żadna
9K28,51,SQUARES,0,480,17,1,3,-,-,-,1.616847038269043,Mała
9K28,52,SQUARES,0,480,17,1,3,-,-,-,0.9003119468688965,Mała
9K28,53,SQUARES,0,480,17,0,3,-,-,-,0.933631181716919,Mała
9K28,54,SQUARES,0,480,17,1,3,-,-,-,0.9835689067840576,Żadna
9K28,55,SQUARES,0,480,17,0,3,-,-,-,2.016942024230957,Żadna
9K28,56,SQUARES,0,480,17,1,3,-,-,-,2.35026216506958,Żadna
9K28,57,SQUARES,0,480,17,1,3,-,-,-,0.6502881050109863,Mała
9K28,58,SQUARES,0,480,17,1,3,-,-,-,1.1669490337371826,Mała
9K28,59,SQUARES,0,480,17,1,3,-,-,-,0.6336240768432617,Mała
9K28,60,SQUARES,0,480,17,1,3,-,-,-,0.9669640064239502,Duża
9K28,61,SQUARES,0,480,17,0,3,-,-,-,0.6335980892181396,Mała
9K28,62,SQUARES,0,480,17,0,3,-,-,-,0.5833621025085449,Mała
9K28,63,SQUARES,0,480,17,0,3,-,-,-,0.8835549354553223,Mała
9K28,64,SQUARES,0,480,17,1,3,-,-,-,0.6669209003448486,Duża
9K28,65,SQUARES,0,480,17,0,3,-,-,-,0.716717004776001,Mała
9K28,66,SQUARES,0,480,17,1,3,-,-,-,0.5502629280090332,Duża
9K28,67,SQUARES,0,480,17,1,3,-,-,-,1.0002639293670654,Mała
9K28,68,SQUARES,0,480,17,1,3,-,-,-,0.5334179401397705,Mała
9K28,69,SQUARES,0,480,17,1,3,-,-,-,0.6335949897766113,Duża
9K28,70,SQUARES,0,480,17,1,3,-,-,-,2.4502909183502197,Mała
9K28,71,SQUARES,0,480,17,1,3,-,-,-,1.766873836517334,Mała
9K28,72,SQUARES,0,480,17,0,3,-,-,-,0.9169750213623047,Mała
9K28,73,SQUARES,0,480,17,1,3,-,-,-,0.716904878616333,Duża
9K28,74,SQUARES,0,480,17,1,3,-,-,-,0.8336079120635986,Duża
9K28,75,SQUARES,0,480,17,1,3,-,-,-,1.0335829257965088,Mała
9K28,76,SQUARES,0,480,17,0,3,-,-,-,0.9835958480834961,Duża
9K28,77,SQUARES,0,480,17,0,3,-,-,-,1.6169829368591309,Mała
9K28,78,SQUARES,0,480,17,0,3,-,-,-,0.7833900451660156,Mała
9K28,79,SQUARES,0,480,17,0,3,-,-,-,0.7836730480194092,Żadna
9K28,80,SQUARES,0,480,17,1,3,-,-,-,1.2668890953063965,Mała
9K28,81,SQUARES,0,480,17,1,3,-,-,-,0.5000700950622559,Duża
9K28,82,SQUARES,0,480,17,0,3,-,-,-,0.7169480323791504,Mała
9K28,83,SQUARES,0,480,17,0,3,-,-,-,1.100085973739624,Duża
9K28,84,SQUARES,0,480,17,0,3,-,-,-,0.7835750579833984,Mała
9K28,85,SQUARES,0,480,17,1,3,-,-,-,0.8169350624084473,Mała
9K28,86,SQUARES,0,480,17,0,3,-,-,-,0.9336469173431396,Mała
9K28,87,SQUARES,0,480,17,1,3,-,-,-,0.8502249717712402,Duża
9K28,88,SQUARES,0,480,17,0,3,-,-,-,1.333554983139038,Mała
9K28,89,SQUARES,0,480,17,0,3,-,-,-,0.9835729598999023,Żadna
9K28,90,SQUARES,0,480,17,1,3,-,-,-,0.6502659320831299,Duża
9K28,91,SQUARES,0,480,17,1,3,-,-,-,0.8002610206604004,Mała
9K28,92,SQUARES,0,480,17,1,3,-,-,-,0.650230884552002,Mała
9K28,93,SQUARES,0,480,17,1,3,-,-,-,0.5003230571746826,Mała
9K28,94,SQUARES,0,480,17,0,3,-,-,-,0.6336479187011719,Mała
9K28,95,SQUARES,0,480,17,0,3,-,-,-,0.6835629940032959,Duża
9K28,96,SQUARES,0,480,17,1,3,-,-,-,0.7502949237823486,Mała
9K28,97,SQUARES,0,480,17,1,3,-,-,-,0.8669149875640869,Mała
9K28,98,SQUARES,0,480,17,0,3,-,-,-,0.9835870265960693,Żadna
9K28,99,SQUARES,0,480,17,0,3,-,-,-,0.5502610206604004,Duża
9K28,100,SQUARES,0,480,17,1,3,-,-,-,1.050234079360962,Mała
9K28,101,SQUARES,0,480,17,1,3,-,-,-,0.8169338703155518,Całkowita
9K28,102,SQUARES,0,480,17,0,3,-,-,-,1.0002679824829102,Duża
9K28,103,SQUARES,0,480,17,0,3,-,-,-,0.7835850715637207,Mała
9K28,104,SQUARES,0,480,17,1,3,-,-,-,0.7000558376312256,Duża
9K28,105,SQUARES,0,480,17,1,3,-,-,-,0.7335610389709473,Duża
9K28,106,SQUARES,0,480,17,0,3,-,-,-,2.3167929649353027,Mała
9K28,107,SQUARES,0,480,17,1,3,-,-,-,0.5503280162811279,Duża
9K28,108,SQUARES,0,480,17,0,3,-,-,-,1.4336061477661133,Mała
9K28,109,SQUARES,0,480,17,1,3,-,-,-,0.5169358253479004,Duża
9K28,110,SQUARES,0,480,17,1,3,-,-,-,1.0002410411834717,Mała
9K28,111,SQUARES,0,480,17,0,3,-,-,-,0.45027899742126465,Mała
9K28,112,SQUARES,0,480,17,1,3,-,-,-,0.5002400875091553,Całkowita
9K28,113,SQUARES,0,480,17,0,3,-,-,-,1.3836219310760498,Mała
9K28,114,SQUARES,0,480,17,0,3,-,-,-,1.200066089630127,Mała
9K28,115,SQUARES,0,480,17,1,3,-,-,-,0.6169741153717041,Duża
9K28,116,SQUARES,0,480,17,1,3,-,-,-,1.5502769947052002,Żadna
9K28,117,SQUARES,0,480,17,1,3,-,-,-,1.4169530868530273,Mała
9K28,118,SQUARES,0,480,17,1,3,-,-,-,1.8002629280090332,Mała
9K28,119,SQUARES,0,480,17,1,3,-,-,-,1.4336650371551514,Duża
9K28,120,SQUARES,0,480,17,1,3,-,-,-,1.8000588417053223,Mała
9K28,121,SQUARES,0,480,17,0,3,-,-,-,1.0002379417419434,Mała
9K28,122,SQUARES,0,480,17,1,3,-,-,-,1.3002381324768066,Duża
9K28,123,SQUARES,0,480,17,1,3,-,-,-,2.5002238750457764,Duża
9K28,124,SQUARES,0,480,17,0,3,-,-,-,1.6002309322357178,Mała
9K28,125,SQUARES,0,480,17,1,3,-,-,-,0.5169069766998291,Całkowita
9K28,126,SQUARES,0,480,17,0,3,-,-,-,1.1836159229278564,Mała
9K28,127,SQUARES,0,480,17,1,3,-,-,-,1.3835690021514893,Mała
9K28,128,SQUARES,0,480,17,1,3,-,-,-,0.48362278938293457,Duża
9K28,129,SQUARES,0,480,17,1,3,-,-,-,0.5835750102996826,Mała
9K28,130,SQUARES,0,480,17,1,3,-,-,-,0.6502401828765869,Duża
9K28,0,CIRCLES,1,20,17,1,10,0,0,0,1.0335819721221924,Mała
9K28,1,CIRCLES,1,20,17,1,10,0,0,-,0.35022401809692383,Całkowita
9K28,2,CIRCLES,1,20,17,0,10,-1,0,-,0.7002060413360596,Mała
9K28,3,CIRCLES,1,20,17,1,11,-1,0,-,0.3336179256439209,Całkowita
9K28,4,CIRCLES,1,20,17,1,11,-1,0,-,0.36690306663513184,Całkowita
9K28,5,CIRCLES,1,20,17,1,11,1,1,1,0.6002099514007568,Duża
9K28,6,CIRCLES,1,20,17,0,10,-1,1,2,0.7835869789123535,Mała
9K28,7,CIRCLES,1,20,17,1,11,-1,0,-,0.20024704933166504,Duża
9K28,8,CIRCLES,1,20,17,1,11,-1,0,-,0.8501920700073242,Duża
9K28,9,CIRCLES,1,20,17,1,11,1,1,3,0.46692585945129395,Duża
9K28,10,CIRCLES,1,20,17,0,10,-1,1,4,0.51692795753479,Duża
9K28,11,CIRCLES,1,20,17,1,11,-1,0,-,0.4669170379638672,Duża
9K28,12,CIRCLES,1,20,17,1,11,-1,0,-,0.36687612533569336,Całkowita
9K28,13,CIRCLES,1,20,17,1,11,1,1,5,0.7002339363098145,Duża
9K28,14,CIRCLES,1,20,17,1,10,1,0,-,0.4336121082305908,Duża
9K28,15,CIRCLES,1,20,17,1,10,1,0,-,0.4335780143737793,Duża
9K28,16,CIRCLES,1,20,17,1,10,1,0,-,0.9500701427459717,Mała
9K28,17,CIRCLES,1,20,17,1,9,1,0,-,0.7335889339447021,Mała
9K28,18,CIRCLES,1,20,17,1,9,1,0,-,0.7335810661315918,Mała
9K28,19,CIRCLES,1,20,17,1,9,1,0,-,0.3169231414794922,Całkowita
9K28,20,CIRCLES,1,20,17,1,8,1,0,-,0.4168689250946045,Duża
9K28,21,CIRCLES,1,20,17,1,8,1,0,-,1.1000559329986572,Duża
9K28,22,CIRCLES,1,20,17,0,8,-1,1,6,1.0335609912872314,Duża
9K28,23,CIRCLES,1,20,17,1,9,-1,0,-,0.36693501472473145,Duża
9K28,24,CIRCLES,1,20,17,1,9,-1,0,-,0.18341302871704102,Duża
9K28,25,CIRCLES,1,20,17,1,9,1,1,7,0.6835570335388184,Duża
9K28,26,CIRCLES,1,20,17,1,8,1,0,-,0.6669101715087891,Duża
9K28,27,CIRCLES,1,20,17,1,8,1,0,-,0.3500649929046631,Duża
9K28,28,CIRCLES,1,20,17,1,8,1,0,-,0.3835639953613281,Duża
9K28,29,CIRCLES,1,20,17,1,7,1,0,-,0.4669301509857178,Duża
9K28,30,CIRCLES,1,20,17,1,7,1,0,-,0.4335670471191406,Duża
9K28,31,CIRCLES,1,20,17,1,7,1,0,-,0.5169439315795898,Całkowita
9K28,32,CIRCLES,1,20,17,1,6,1,0,-,0.5169599056243896,Mała
9K28,33,CIRCLES,1,20,17,1,6,1,0,-,0.3335721492767334,Duża
9K28,34,CIRCLES,1,20,17,1,6,1,0,-,0.3168671131134033,Duża
9K28,35,CIRCLES,1,20,17,1,5,1,0,-,1.000260829925537,Mała
9K28,36,CIRCLES,1,20,17,1,5,1,0,-,0.3336460590362549,Duża
9K28,37,CIRCLES,1,20,17,1,5,1,0,-,0.8835501670837402,Duża
9K28,38,CIRCLES,1,20,17,0,4,-1,1,8,1.5002501010894775,Mała
9K28,38,CIRCLES,0,480,17,1,10,-,-,-,0.36695194244384766,Duża
9K28,39,CIRCLES,0,480,17,1,10,-,-,-,0.4167618751525879,Duża
9K28,40,CIRCLES,0,480,17,1,10,-,-,-,0.4169199466705322,Duża
9K28,41,CIRCLES,0,480,17,1,10,-,-,-,0.3502378463745117,Duża
9K28,42,CIRCLES,0,480,17,1,10,-,-,-,0.4502899646759033,Mała
9K28,43,CIRCLES,0,480,17,1,10,-,-,-,0.40031981468200684,Duża
9K28,44,CIRCLES,0,480,17,1,10,-,-,-,0.7669730186462402,Mała
9K28,45,CIRCLES,0,480,17,1,10,-,-,-,0.5667619705200195,Duża
9K28,46,CIRCLES,0,480,17,1,10,-,-,-,0.4169127941131592,Duża
9K28,47,CIRCLES,0,480,17,1,10,-,-,-,0.16692805290222168,Duża
9K28,48,CIRCLES,0,480,17,1,10,-,-,-,0.2500607967376709,Duża
9K28,49,CIRCLES,0,480,17,1,10,-,-,-,0.3000609874725342,Duża
9K28,50,CIRCLES,0,480,17,0,10,-,-,-,1.1667249202728271,Mała
9K28,51,CIRCLES,0,480,17,1,10,-,-,-,0.46694493293762207,Duża
9K28,52,CIRCLES,0,480,17,1,10,-,-,-,0.6169300079345703,Mała
9K28,53,CIRCLES,0,480,17,1,10,-,-,-,0.3003270626068115,Duża
9K28,54,CIRCLES,0,480,17,1,10,-,-,-,0.6669371128082275,Duża
9K28,55,CIRCLES,0,480,17,1,10,-,-,-,0.4169039726257324,Całkowita
9K28,56,CIRCLES,0,480,17,1,10,-,-,-,0.43341994285583496,Mała
9K28,57,CIRCLES,0,480,17,1,10,-,-,-,0.38358497619628906,Całkowita
9K28,58,CIRCLES,0,480,17,1,10,-,-,-,0.716717004776001,Mała
9K28,59,CIRCLES,0,480,17,1,10,-,-,-,0.30027103424072266,Duża
9K28,60,CIRCLES,0,480,17,1,10,-,-,-,0.5836851596832275,Mała
9K28,61,CIRCLES,0,480,17,1,10,-,-,-,0.38356900215148926,Całkowita
9K28,62,CIRCLES,0,480,17,0,10,-,-,-,1.1002871990203857,Mała
9K28,63,CIRCLES,0,480,17,1,10,-,-,-,0.3002340793609619,Całkowita
9K28,64,CIRCLES,0,480,17,1,10,-,-,-,0.35025596618652344,Mała
9K28,65,CIRCLES,0,480,17,1,10,-,-,-,1.4502050876617432,Mała
9K28,66,CIRCLES,0,480,17,1,10,-,-,-,0.7167420387268066,Duża
9K28,67,CIRCLES,0,480,17,1,10,-,-,-,0.3836679458618164,Całkowita
9K28,68,CIRCLES,0,480,17,1,10,-,-,-,0.35025811195373535,Duża
9K28,69,CIRCLES,0,480,17,1,10,-,-,-,0.5002100467681885,Duża
9K28,70,CIRCLES,0,480,17,1,10,-,-,-,1.2668819427490234,Żadna
9K28,71,CIRCLES,0,480,17,1,10,-,-,-,1.3835768699645996,Żadna
9K28,72,CIRCLES,0,480,17,1,10,-,-,-,0.500277042388916,Duża
9K28,73,CIRCLES,0,480,17,1,10,-,-,-,0.3503150939941406,Całkowita
9K28,74,CIRCLES,0,480,17,0,10,-,-,-,0.7168920040130615,Mała
9K28,75,CIRCLES,0,480,17,1,10,-,-,-,0.6667201519012451,Duża
9K28,76,CIRCLES,0,480,17,0,10,-,-,-,1.266697883605957,Mała
9K28,77,CIRCLES,0,480,17,1,10,-,-,-,0.9502251148223877,Duża
9K28,78,CIRCLES,0,480,17,1,10,-,-,-,0.9835860729217529,Mała
9K28,79,CIRCLES,0,480,17,0,10,-,-,-,1.4002931118011475,Mała
9K28,80,CIRCLES,0,480,17,1,10,-,-,-,0.5002708435058594,Duża
9K28,81,CIRCLES,0,480,17,1,10,-,-,-,0.33371400833129883,Całkowita
9K28,82,CIRCLES,0,480,17,0,10,-,-,-,0.5169370174407959,Mała
9K28,83,CIRCLES,0,480,17,1,10,-,-,-,2.1002140045166016,Żadna
9K28,84,CIRCLES,0,480,17,1,10,-,-,-,0.46693897247314453,Duża
9K28,85,CIRCLES,0,480,17,0,10,-,-,-,0.7335948944091797,Mała
9K28,86,CIRCLES,0,480,17,0,10,-,-,-,0.9167289733886719,Mała
9K28,87,CIRCLES,0,480,17,0,10,-,-,-,1.216982126235962,Mała
9K28,88,CIRCLES,0,480,17,0,10,-,-,-,1.0334501266479492,Mała
9K28,89,CIRCLES,0,480,17,1,10,-,-,-,0.5502970218658447,Duża
9K28,90,CIRCLES,0,480,17,1,10,-,-,-,0.3502798080444336,Duża
9K28,91,CIRCLES,0,480,17,1,10,-,-,-,0.9335660934448242,Mała
9K28,92,CIRCLES,0,480,17,0,10,-,-,-,0.8169341087341309,Mała
9K28,93,CIRCLES,0,480,17,1,10,-,-,-,0.5835721492767334,Duża
9K28,94,CIRCLES,0,480,17,0,10,-,-,-,2.01694393157959,Mała
9K28,95,CIRCLES,0,480,17,0,10,-,-,-,1.683401107788086,Mała
9K28,96,CIRCLES,0,480,17,1,10,-,-,-,1.2335851192474365,Duża
9K28,97,CIRCLES,0,480,17,1,10,-,-,-,0.7503669261932373,Mała
9K28,98,CIRCLES,0,480,17,0,10,-,-,-,1.0169360637664795,Mała
9K28,99,CIRCLES,0,480,17,0,10,-,-,-,0.5335948467254639,Duża
9K28,100,CIRCLES,0,480,17,1,10,-,-,-,1.2835910320281982,Mała
9K28,101,CIRCLES,0,480,17,1,10,-,-,-,0.4502580165863037,Mała
9K28,102,CIRCLES,0,480,17,1,10,-,-,-,0.7168989181518555,Mała
9K28,103,CIRCLES,0,480,17,1,10,-,-,-,0.5836429595947266,Mała
9K28,104,CIRCLES,0,480,17,0,10,-,-,-,0.8835840225219727,Duża
9K28,105,CIRCLES,0,480,17,1,10,-,-,-,0.016901016235351562,Mała
9K28,106,CIRCLES,0,480,17,1,10,-,-,-,1.1002180576324463,Mała
9K28,107,CIRCLES,0,480,17,1,10,-,-,-,0.7335920333862305,Duża
9K28,108,CIRCLES,0,480,17,1,10,-,-,-,0.7336080074310303,Mała
9K28,109,CIRCLES,0,480,17,1,10,-,-,-,0.8333959579467773,Mała
9K28,110,CIRCLES,0,480,17,1,10,-,-,-,3.466891050338745,Mała
9K28,111,CIRCLES,0,480,17,1,10,-,-,-,0.5335838794708252,Duża
9K28,112,CIRCLES,0,480,17,1,10,-,-,-,0.8002691268920898,Mała
9K28,113,CIRCLES,0,480,17,1,10,-,-,-,0.6836249828338623,Duża
9K28,114,CIRCLES,0,480,17,1,10,-,-,-,0.3168971538543701,Całkowita
9K28,115,CIRCLES,0,480,17,1,10,-,-,-,0.6002049446105957,Mała
9K28,116,CIRCLES,0,480,17,0,10,-,-,-,1.5002388954162598,Mała
9K28,117,CIRCLES,0,480,17,1,10,-,-,-,1.8669178485870361,Mała
9K28,118,CIRCLES,0,480,17,1,10,-,-,-,0.7000951766967773,Duża
9K28,119,CIRCLES,0,480,17,1,10,-,-,-,0.2169039249420166,Całkowita
9K28,120,CIRCLES,0,480,17,1,10,-,-,-,0.2502579689025879,Całkowita
9K28,121,CIRCLES,0,480,17,1,10,-,-,-,0.2169208526611328,Całkowita
9K28,122,CIRCLES,0,480,17,1,10,-,-,-,1.350320816040039,Mała
9K28,123,CIRCLES,0,480,17,1,10,-,-,-,0.3335709571838379,Całkowita
9K28,124,CIRCLES,0,480,17,1,10,-,-,-,0.3169848918914795,Całkowita
9K28,125,CIRCLES,0,480,17,1,10,-,-,-,1.366882085800171,Mała
9K28,126,CIRCLES,0,480,17,1,10,-,-,-,1.1836490631103516,Mała
9K28,127,CIRCLES,0,480,17,1,10,-,-,-,0.5669729709625244,Duża
